Folder: Project-Materials-Digital-Laboratory

File: sample_tensile.csv
strain,stress
0.0001,20
0.0002,40
0.0003,60
0.0004,80
0.0005,100
0.0006,120
0.0007,140
0.0008,160
0.0009,180
0.0010,200
0.0012,230
0.0014,260
0.0016,290
0.0018,300
0.0020,310
0.0022,305
0.0024,290